reward_today,future_reward,delay,trials.thisRepN,trials.thisTrialN,trials.thisN,trials.thisIndex,thisRow.t,notes,trial.started,fixation.started,text.started,key_resp.started,fixation.stopped,trial.stopped,key_resp.keys,key_resp.rt,key_resp.duration,participant,session,date,expName,psychopyVersion,frameRate,expStart,
27.0,50.0,21.0,0,0,0,2,0.07716369999980088,,0.020878199999970093,0.07716369999980088,1.0157054999999673,1.0157054999999673,1.0823206999994,2.0008632999997644,l,0.9694597000006979,None,04,001,2024-11-21_19h19.50.589,PSY310 TASK7,2024.1.5,None,2024-11-21 19h20.10.136446 +0530,
11.0,30.0,7.0,0,1,1,0,2.015539799999715,,2.0024701000002096,2.015539799999715,3.015139199999794,3.015139199999794,3.015139199999794,3.3669300999999905,t,0.3498914000001605,None,04,001,2024-11-21_19h19.50.589,PSY310 TASK7,2024.1.5,None,2024-11-21 19h20.10.136446 +0530,
40.0,55.0,62.0,0,2,2,3,3.3818515000002662,,3.3676305999997567,3.3818515000002662,4.381774399999813,4.381774399999813,4.381774399999813,4.649667900000168,t,0.2524591999999757,None,04,001,2024-11-21_19h19.50.589,PSY310 TASK7,2024.1.5,None,2024-11-21 19h20.10.136446 +0530,
49.0,60.0,89.0,0,3,3,4,4.665224700000181,,4.650427399999899,4.665224700000181,5.665086099999826,5.665086099999826,5.665086099999826,5.834558999999899,t,0.15618150000045716,None,04,001,2024-11-21_19h19.50.589,PSY310 TASK7,2024.1.5,None,2024-11-21 19h20.10.136446 +0530,
15.0,35.0,13.0,0,4,4,1,5.848308499999803,,5.835137899999609,5.848308499999803,6.880515199999536,6.880515199999536,6.880515199999536,7.104392700000062,t,0.20135140000002139,None,04,001,2024-11-21_19h19.50.589,PSY310 TASK7,2024.1.5,None,2024-11-21 19h20.10.136446 +0530,
67.0,75.0,119.0,0,5,5,5,7.119997400000102,,7.104973299999983,7.119997400000102,8.11795710000024,8.11795710000024,8.134629099999984,10.150929200000064,t,2.0305269000000408,None,04,001,2024-11-21_19h19.50.589,PSY310 TASK7,2024.1.5,None,2024-11-21 19h20.10.136446 +0530,
78.0,80.0,162.0,0,6,6,6,10.18130359999941,,10.152007699999558,10.18130359999941,11.165098800000123,11.165098800000123,11.182722599999579,11.533610899999985,t,0.3618787000004886,None,04,001,2024-11-21_19h19.50.589,PSY310 TASK7,2024.1.5,None,2024-11-21 19h20.10.136446 +0530,
40.0,55.0,62.0,1,0,7,3,11.550578499999574,,11.535495600000104,11.550578499999574,12.548514299999624,12.548514299999624,12.56500270000015,12.783446299999923,t,0.22395330000017566,None,04,001,2024-11-21_19h19.50.589,PSY310 TASK7,2024.1.5,None,2024-11-21 19h20.10.136446 +0530,
49.0,60.0,89.0,1,1,8,4,12.798036799999863,,12.784076199999618,12.798036799999863,13.798093399999743,13.798093399999743,13.798093399999743,14.066109999999753,t,0.2593344999995679,None,04,001,2024-11-21_19h19.50.589,PSY310 TASK7,2024.1.5,None,2024-11-21 19h20.10.136446 +0530,
11.0,30.0,7.0,1,2,9,0,14.08129099999951,,14.067638100000295,14.08129099999951,15.081401999999798,15.081401999999798,15.081401999999798,15.367392000000109,t,0.2697347000002992,None,04,001,2024-11-21_19h19.50.589,PSY310 TASK7,2024.1.5,None,2024-11-21 19h20.10.136446 +0530,
67.0,75.0,119.0,1,3,10,5,15.382571500000267,,15.368880399999398,15.382571500000267,16.381255999999667,16.381255999999667,16.39803589999974,16.632410700000037,t,0.2477420000004713,None,04,001,2024-11-21_19h19.50.589,PSY310 TASK7,2024.1.5,None,2024-11-21 19h20.10.136446 +0530,
27.0,50.0,21.0,1,4,11,2,16.64816729999984,,16.634089099999983,16.64816729999984,17.64796060000026,17.64796060000026,17.64796060000026,17.834211100000175,t,0.17033590000028198,None,04,001,2024-11-21_19h19.50.589,PSY310 TASK7,2024.1.5,None,2024-11-21 19h20.10.136446 +0530,
78.0,80.0,162.0,1,5,12,6,17.847845499999494,,17.83570779999991,17.847845499999494,18.84791200000018,18.84791200000018,18.84791200000018,19.14882639999996,t,0.29580650000025344,None,04,001,2024-11-21_19h19.50.589,PSY310 TASK7,2024.1.5,None,2024-11-21 19h20.10.136446 +0530,
15.0,35.0,13.0,1,6,13,1,19.164289600000302,,19.14942079999946,19.164289600000302,20.16445779999958,20.16445779999958,20.16445779999958,20.6154918000002,t,0.4348665000006804,None,04,001,2024-11-21_19h19.50.589,PSY310 TASK7,2024.1.5,None,2024-11-21 19h20.10.136446 +0530,
78.0,80.0,162.0,2,0,14,6,20.630855800000063,,20.61597840000013,20.630855800000063,21.631078100000195,21.631078100000195,21.631078100000195,21.91549589999977,t,0.26890629999979865,None,04,001,2024-11-21_19h19.50.589,PSY310 TASK7,2024.1.5,None,2024-11-21 19h20.10.136446 +0530,
27.0,50.0,21.0,2,1,15,2,21.93091529999947,,21.916146699999445,21.93091529999947,22.914408900000126,22.914408900000126,22.93105899999955,23.248597900000277,t,0.3222662999996828,None,04,001,2024-11-21_19h19.50.589,PSY310 TASK7,2024.1.5,None,2024-11-21 19h20.10.136446 +0530,
15.0,35.0,13.0,2,2,16,1,23.26406979999956,,23.249087399999553,23.26406979999956,24.26424450000013,24.26424450000013,24.26424450000013,24.29972480000015,t,0.03130109999983688,None,04,001,2024-11-21_19h19.50.589,PSY310 TASK7,2024.1.5,None,2024-11-21 19h20.10.136446 +0530,
40.0,55.0,62.0,2,3,17,3,24.314590599999974,,24.300955199999407,24.314590599999974,25.314153399999668,25.314153399999668,25.314153399999668,25.73169710000002,t,0.40336260000003676,None,04,001,2024-11-21_19h19.50.589,PSY310 TASK7,2024.1.5,None,2024-11-21 19h20.10.136446 +0530,
67.0,75.0,119.0,2,4,18,5,25.74730989999989,,25.734254599999986,25.74730989999989,26.74736919999941,26.74736919999941,26.74736919999941,27.098468700000012,t,0.33616319999964617,None,04,001,2024-11-21_19h19.50.589,PSY310 TASK7,2024.1.5,None,2024-11-21 19h20.10.136446 +0530,
11.0,30.0,7.0,2,5,19,0,27.11385160000009,,27.100144199999704,27.11385160000009,28.11458390000007,28.11458390000007,28.11458390000007,28.15053220000027,t,0.02991799999927025,None,04,001,2024-11-21_19h19.50.589,PSY310 TASK7,2024.1.5,None,2024-11-21 19h20.10.136446 +0530,
49.0,60.0,89.0,2,6,20,4,28.163937899999837,,28.151711299999988,28.163937899999837,29.16409299999941,29.16409299999941,29.16409299999941,29.498234599999705,t,0.3184808999994857,None,04,001,2024-11-21_19h19.50.589,PSY310 TASK7,2024.1.5,None,2024-11-21 19h20.10.136446 +0530,
40.0,55.0,62.0,3,0,21,3,29.516240500000094,,29.499782500000038,29.516240500000094,30.5138780999996,30.5138780999996,30.53038149999975,30.900132400000075,t,0.3711727999998402,None,04,001,2024-11-21_19h19.50.589,PSY310 TASK7,2024.1.5,None,2024-11-21 19h20.10.136446 +0530,
15.0,35.0,13.0,3,1,22,1,30.913635599999907,,30.901746399999865,30.913635599999907,31.916142299999592,31.916142299999592,31.916142299999592,32.33157870000014,t,0.4108078999997815,None,04,001,2024-11-21_19h19.50.589,PSY310 TASK7,2024.1.5,None,2024-11-21 19h20.10.136446 +0530,
27.0,50.0,21.0,3,2,23,2,32.34689879999951,,32.33328809999966,32.34689879999951,33.3469740999999,33.3469740999999,33.3469740999999,33.68209719999959,t,0.33172949999971024,None,04,001,2024-11-21_19h19.50.589,PSY310 TASK7,2024.1.5,None,2024-11-21 19h20.10.136446 +0530,
11.0,30.0,7.0,3,3,24,0,33.69668089999959,,33.68445189999966,33.69668089999959,34.69691899999998,34.69691899999998,34.69691899999998,34.73127680000016,t,0.020531099999971048,None,04,001,2024-11-21_19h19.50.589,PSY310 TASK7,2024.1.5,None,2024-11-21 19h20.10.136446 +0530,
67.0,75.0,119.0,3,4,25,5,34.746711900000264,,34.73282389999986,34.746711900000264,35.746724200000244,35.746724200000244,35.746724200000244,36.23300569999992,t,0.48069220000070345,None,04,001,2024-11-21_19h19.50.589,PSY310 TASK7,2024.1.5,None,2024-11-21 19h20.10.136446 +0530,
49.0,60.0,89.0,3,5,26,4,36.246435299999575,,36.23437990000002,36.246435299999575,37.24904040000001,37.24904040000001,37.24904040000001,37.33094489999985,t,0.07068100000014965,None,04,001,2024-11-21_19h19.50.589,PSY310 TASK7,2024.1.5,None,2024-11-21 19h20.10.136446 +0530,
78.0,80.0,162.0,3,6,27,6,37.34659069999998,,37.33238329999949,37.34659069999998,38.34669649999978,38.34669649999978,38.34669649999978,38.75049200000012,t,0.3965150000003632,None,04,001,2024-11-21_19h19.50.589,PSY310 TASK7,2024.1.5,None,2024-11-21 19h20.10.136446 +0530,
78.0,80.0,162.0,4,0,28,6,38.76339850000022,,38.75246100000004,38.76339850000022,39.763338300000214,39.763338300000214,39.763338300000214,39.81443750000017,t,0.04425779999928636,None,04,001,2024-11-21_19h19.50.589,PSY310 TASK7,2024.1.5,None,2024-11-21 19h20.10.136446 +0530,
67.0,75.0,119.0,4,1,29,5,39.82980989999942,,39.81498779999947,39.82980989999942,40.82983239999976,40.82983239999976,40.82983239999976,41.117245999999795,t,0.28149299999950017,None,04,001,2024-11-21_19h19.50.589,PSY310 TASK7,2024.1.5,None,2024-11-21 19h20.10.136446 +0530,
11.0,30.0,7.0,4,2,30,0,41.1296325000003,,41.118616900000234,41.1296325000003,42.129644099999496,42.129644099999496,42.129644099999496,42.430833399999756,l,0.29529790000015055,None,04,001,2024-11-21_19h19.50.589,PSY310 TASK7,2024.1.5,None,2024-11-21 19h20.10.136446 +0530,
49.0,60.0,89.0,4,3,31,4,42.44634169999972,,42.43245599999955,42.44634169999972,43.446349400000145,43.446349400000145,43.446349400000145,43.664657799999986,t,0.21072849999927712,None,04,001,2024-11-21_19h19.50.589,PSY310 TASK7,2024.1.5,None,2024-11-21 19h20.10.136446 +0530,
27.0,50.0,21.0,4,4,32,2,43.67945679999957,,43.6660082999997,43.67945679999957,44.67962139999963,44.67962139999963,44.67962139999963,44.964162600000236,l,0.27879329999996116,None,04,001,2024-11-21_19h19.50.589,PSY310 TASK7,2024.1.5,None,2024-11-21 19h20.10.136446 +0530,
40.0,55.0,62.0,4,5,33,3,44.97945939999954,,44.96593389999998,44.97945939999954,45.97946289999982,45.97946289999982,45.97946289999982,46.28066979999949,t,0.2874776999997266,None,04,001,2024-11-21_19h19.50.589,PSY310 TASK7,2024.1.5,None,2024-11-21 19h20.10.136446 +0530,
15.0,35.0,13.0,4,6,34,1,46.296072999999524,,46.281192599999486,46.296072999999524,47.29593879999993,47.29593879999993,47.29593879999993,47.450710099999924,l,0.15101460000005318,None,04,001,2024-11-21_19h19.50.589,PSY310 TASK7,2024.1.5,None,2024-11-21 19h20.10.136446 +0530,
11.0,30.0,7.0,5,0,35,0,47.46277949999967,,47.45244989999992,47.46277949999967,48.462645200000225,48.462645200000225,48.462645200000225,48.8469385999997,l,0.38001299999996263,None,04,001,2024-11-21_19h19.50.589,PSY310 TASK7,2024.1.5,None,2024-11-21 19h20.10.136446 +0530,
67.0,75.0,119.0,5,1,36,5,48.86255869999968,,48.847461000000294,48.86255869999968,49.8627491999996,49.8627491999996,49.8627491999996,50.13043279999965,l,0.2504473999997572,None,04,001,2024-11-21_19h19.50.589,PSY310 TASK7,2024.1.5,None,2024-11-21 19h20.10.136446 +0530,
40.0,55.0,62.0,5,2,37,3,50.14578470000015,,50.13185590000012,50.14578470000015,51.14588579999963,51.14588579999963,51.14588579999963,51.44675189999998,t,0.2936987000002773,None,04,001,2024-11-21_19h19.50.589,PSY310 TASK7,2024.1.5,None,2024-11-21 19h20.10.136446 +0530,
78.0,80.0,162.0,5,3,38,6,51.46242549999988,,51.4472324999997,51.46242549999988,52.46251829999983,52.46251829999983,52.46251829999983,52.69708850000006,l,0.22620769999957702,None,04,001,2024-11-21_19h19.50.589,PSY310 TASK7,2024.1.5,None,2024-11-21 19h20.10.136446 +0530,
49.0,60.0,89.0,5,4,39,4,52.71297340000001,,52.69876479999948,52.71297340000001,53.71247070000027,53.71247070000027,53.71247070000027,53.89703129999998,l,0.16709639999953652,None,04,001,2024-11-21_19h19.50.589,PSY310 TASK7,2024.1.5,None,2024-11-21 19h20.10.136446 +0530,
27.0,50.0,21.0,5,5,40,2,53.91226319999987,,53.89935119999973,53.91226319999987,54.91256129999965,54.91256129999965,54.91256129999965,55.380228400000306,l,0.4523092999997971,None,04,001,2024-11-21_19h19.50.589,PSY310 TASK7,2024.1.5,None,2024-11-21 19h20.10.136446 +0530,
15.0,35.0,13.0,5,6,41,1,55.39547510000011,,55.38158849999945,55.39547510000011,56.37894150000011,56.37894150000011,56.395203299999594,56.66513130000021,t,0.268869800000175,None,04,001,2024-11-21_19h19.50.589,PSY310 TASK7,2024.1.5,None,2024-11-21 19h20.10.136446 +0530,
11.0,30.0,7.0,6,0,42,0,56.6786833999995,,56.66649830000006,56.6786833999995,57.67883879999954,57.67883879999954,57.67883879999954,57.96309959999962,t,0.27460509999946225,None,04,001,2024-11-21_19h19.50.589,PSY310 TASK7,2024.1.5,None,2024-11-21 19h20.10.136446 +0530,
49.0,60.0,89.0,6,1,43,4,57.97854619999998,,57.964731799999754,57.97854619999998,58.97870609999973,58.97870609999973,58.97870609999973,59.22993159999987,t,0.24223470000015368,None,04,001,2024-11-21_19h19.50.589,PSY310 TASK7,2024.1.5,None,2024-11-21 19h20.10.136446 +0530,
67.0,75.0,119.0,6,2,44,5,59.245268399999986,,59.23144820000016,59.245268399999986,60.24539180000011,60.24539180000011,60.24539180000011,60.49637509999957,t,0.2432468000006338,None,04,001,2024-11-21_19h19.50.589,PSY310 TASK7,2024.1.5,None,2024-11-21 19h20.10.136446 +0530,
40.0,55.0,62.0,6,3,45,3,60.51197090000005,,60.49806939999962,60.51197090000005,61.4951046999995,61.4951046999995,61.5127964000003,61.74867389999963,t,0.24084749999929045,None,04,001,2024-11-21_19h19.50.589,PSY310 TASK7,2024.1.5,None,2024-11-21 19h20.10.136446 +0530,
78.0,80.0,162.0,6,4,46,6,61.76173629999994,,61.74911489999977,61.76173629999994,62.7619224,62.7619224,62.7619224,63.04953959999966,t,0.2676710000005187,None,04,001,2024-11-21_19h19.50.589,PSY310 TASK7,2024.1.5,None,2024-11-21 19h20.10.136446 +0530,
15.0,35.0,13.0,6,5,47,1,63.06173039999976,,63.05016819999946,63.06173039999976,64.06192970000029,64.06192970000029,64.06192970000029,64.3155813000003,t,0.24726820000068983,None,04,001,2024-11-21_19h19.50.589,PSY310 TASK7,2024.1.5,None,2024-11-21 19h20.10.136446 +0530,
27.0,50.0,21.0,6,6,48,2,64.32824249999976,,64.31633169999986,64.32824249999976,65.32838989999982,65.32838989999982,65.32838989999982,65.5629116,t,0.22297699999944598,None,04,001,2024-11-21_19h19.50.589,PSY310 TASK7,2024.1.5,None,2024-11-21 19h20.10.136446 +0530,
11.0,30.0,7.0,7,0,49,0,65.57810580000023,,65.56528460000027,65.57810580000023,66.57816529999945,66.57816529999945,66.57816529999945,66.81475580000006,l,0.22726939999938622,None,04,001,2024-11-21_19h19.50.589,PSY310 TASK7,2024.1.5,None,2024-11-21 19h20.10.136446 +0530,
49.0,60.0,89.0,7,1,50,4,66.82809850000012,,66.81532729999981,66.82809850000012,67.82823019999978,67.82823019999978,67.82823019999978,68.27925739999955,t,0.4418132999999216,None,04,001,2024-11-21_19h19.50.589,PSY310 TASK7,2024.1.5,None,2024-11-21 19h20.10.136446 +0530,
27.0,50.0,21.0,7,2,51,2,68.29466869999942,,68.2797413999997,68.29466869999942,69.29481279999982,69.29481279999982,69.29481279999982,69.53159559999949,t,0.2335441000004721,None,04,001,2024-11-21_19h19.50.589,PSY310 TASK7,2024.1.5,None,2024-11-21 19h20.10.136446 +0530,
40.0,55.0,62.0,7,3,52,3,69.54456729999947,,69.53302359999998,69.54456729999947,70.54480890000013,70.54480890000013,70.54480890000013,70.81251379999958,t,0.2560483999995995,None,04,001,2024-11-21_19h19.50.589,PSY310 TASK7,2024.1.5,None,2024-11-21 19h20.10.136446 +0530,
15.0,35.0,13.0,7,4,53,1,70.82777129999977,,70.81303939999998,70.82777129999977,71.82793270000002,71.82793270000002,71.82793270000002,72.07896859999983,t,0.24613940000017465,None,04,001,2024-11-21_19h19.50.589,PSY310 TASK7,2024.1.5,None,2024-11-21 19h20.10.136446 +0530,
78.0,80.0,162.0,7,5,54,6,72.09445090000008,,72.07948380000016,72.09445090000008,73.0944669999999,73.0944669999999,73.0944669999999,73.29578909999964,t,0.19329040000047826,None,04,001,2024-11-21_19h19.50.589,PSY310 TASK7,2024.1.5,None,2024-11-21 19h20.10.136446 +0530,
67.0,75.0,119.0,7,6,55,5,73.31099199999971,,73.2977393000001,73.31099199999971,74.31131610000011,74.31131610000011,74.31131610000011,74.48147249999965,t,0.16304270000000542,None,04,001,2024-11-21_19h19.50.589,PSY310 TASK7,2024.1.5,None,2024-11-21 19h20.10.136446 +0530,
27.0,50.0,21.0,8,0,56,2,74.49433940000017,,74.48204759999953,74.49433940000017,75.49455769999986,75.49455769999986,75.49455769999986,75.71421180000016,t,0.20074509999994916,None,04,001,2024-11-21_19h19.50.589,PSY310 TASK7,2024.1.5,None,2024-11-21 19h20.10.136446 +0530,
78.0,80.0,162.0,8,1,57,6,75.72759789999964,,75.71468300000015,75.72759789999964,76.72770320000018,76.72770320000018,76.72770320000018,76.9141512999995,t,0.1826320999998643,None,04,001,2024-11-21_19h19.50.589,PSY310 TASK7,2024.1.5,None,2024-11-21 19h20.10.136446 +0530,
67.0,75.0,119.0,8,2,58,5,76.92743999999948,,76.9171150000002,76.92743999999948,77.92756519999966,77.92756519999966,77.92756519999966,78.19548320000013,t,0.2603257999999187,None,04,001,2024-11-21_19h19.50.589,PSY310 TASK7,2024.1.5,None,2024-11-21 19h20.10.136446 +0530,
15.0,35.0,13.0,8,3,59,1,78.2115960000001,,78.19722120000006,78.2115960000001,79.19404500000019,79.19404500000019,79.21144069999991,79.4152755999994,t,0.2150155999997878,None,04,001,2024-11-21_19h19.50.589,PSY310 TASK7,2024.1.5,None,2024-11-21 19h20.10.136446 +0530,
49.0,60.0,89.0,8,4,60,4,79.42762080000011,,79.4167996999995,79.42762080000011,80.4272877000003,80.4272877000003,80.4272877000003,80.67851379999956,t,0.23440320000008796,None,04,001,2024-11-21_19h19.50.589,PSY310 TASK7,2024.1.5,None,2024-11-21 19h20.10.136446 +0530,
40.0,55.0,62.0,8,5,61,3,80.6939298999996,,80.67904249999992,80.6939298999996,81.69412339999963,81.69412339999963,81.69412339999963,81.91206809999949,l,0.20271620000039547,None,04,001,2024-11-21_19h19.50.589,PSY310 TASK7,2024.1.5,None,2024-11-21 19h20.10.136446 +0530,
11.0,30.0,7.0,8,6,62,0,81.92707590000009,,81.91263859999981,81.92707590000009,82.92712299999948,82.92712299999948,82.92712299999948,83.17858299999989,l,0.24326769999970566,None,04,001,2024-11-21_19h19.50.589,PSY310 TASK7,2024.1.5,None,2024-11-21 19h20.10.136446 +0530,
27.0,50.0,21.0,9,0,63,2,83.19355050000013,,83.17936999999984,83.19355050000013,84.19393179999952,84.19393179999952,84.19393179999952,84.47812869999962,t,0.26747880000039004,None,04,001,2024-11-21_19h19.50.589,PSY310 TASK7,2024.1.5,None,2024-11-21 19h20.10.136446 +0530,
40.0,55.0,62.0,9,1,64,3,84.49369519999982,,84.47860339999988,84.49369519999982,85.49381059999996,85.49381059999996,85.49381059999996,85.76153879999947,l,0.2594509000000471,None,04,001,2024-11-21_19h19.50.589,PSY310 TASK7,2024.1.5,None,2024-11-21 19h20.10.136446 +0530,
15.0,35.0,13.0,9,2,65,1,85.78158879999955,,85.76313310000023,85.78158879999955,86.77691510000022,86.77691510000022,86.79374519999965,86.87818319999951,t,0.08448140000018611,None,04,001,2024-11-21_19h19.50.589,PSY310 TASK7,2024.1.5,None,2024-11-21 19h20.10.136446 +0530,
67.0,75.0,119.0,9,3,66,5,86.89352189999954,,86.87867860000006,86.89352189999954,87.89366599999994,87.89366599999994,87.89366599999994,88.1300696999997,t,0.23299779999979364,None,04,001,2024-11-21_19h19.50.589,PSY310 TASK7,2024.1.5,None,2024-11-21 19h20.10.136446 +0530,
49.0,60.0,89.0,9,4,67,4,88.14342299999953,,88.13208589999977,88.14342299999953,89.14331159999983,89.14331159999983,89.14331159999983,89.39673570000014,t,0.23762389999956213,None,04,001,2024-11-21_19h19.50.589,PSY310 TASK7,2024.1.5,None,2024-11-21 19h20.10.136446 +0530,
11.0,30.0,7.0,9,5,68,0,89.41010910000023,,89.39942580000024,89.41010910000023,90.4101399000001,90.4101399000001,90.4101399000001,90.67789059999996,t,0.25449359999947774,None,04,001,2024-11-21_19h19.50.589,PSY310 TASK7,2024.1.5,None,2024-11-21 19h20.10.136446 +0530,
78.0,80.0,162.0,9,6,69,6,90.69327969999995,,90.67843979999998,90.69327969999995,91.69326730000012,91.69326730000012,91.69326730000012,91.9158496,l,0.21897730000000593,None,04,001,2024-11-21_19h19.50.589,PSY310 TASK7,2024.1.5,None,2024-11-21 19h20.10.136446 +0530,
11.0,30.0,7.0,10,0,70,0,91.9264905,,91.91638349999994,91.9264905,92.92658500000016,92.92658500000016,92.92658500000016,93.16376369999944,l,0.23352689999956056,None,04,001,2024-11-21_19h19.50.589,PSY310 TASK7,2024.1.5,None,2024-11-21 19h20.10.136446 +0530,
15.0,35.0,13.0,10,1,71,1,93.17646199999945,,93.16514730000017,93.17646199999945,94.17645949999951,94.17645949999951,94.17645949999951,94.41225589999976,t,0.22862549999990733,None,04,001,2024-11-21_19h19.50.589,PSY310 TASK7,2024.1.5,None,2024-11-21 19h20.10.136446 +0530,
27.0,50.0,21.0,10,2,72,2,94.42644079999991,,94.41276719999951,94.42644079999991,95.42641189999995,95.42641189999995,95.42641189999995,95.57839400000012,t,0.15029430000049615,None,04,001,2024-11-21_19h19.50.589,PSY310 TASK7,2024.1.5,None,2024-11-21 19h20.10.136446 +0530,
49.0,60.0,89.0,10,3,73,4,95.59299550000014,,95.5803777000001,95.59299550000014,96.59301439999945,96.59301439999945,96.59301439999945,96.862615,l,0.25099129999944125,None,04,001,2024-11-21_19h19.50.589,PSY310 TASK7,2024.1.5,None,2024-11-21 19h20.10.136446 +0530,
78.0,80.0,162.0,10,4,74,6,96.8762655999999,,96.86416540000027,96.8762655999999,97.8762498999995,97.8762498999995,97.8762498999995,98.11083820000022,t,0.22684310000022379,None,04,001,2024-11-21_19h19.50.589,PSY310 TASK7,2024.1.5,None,2024-11-21 19h20.10.136446 +0530,
67.0,75.0,119.0,10,5,75,5,98.12625709999975,,98.11135229999945,98.12625709999975,99.12630329999956,99.12630329999956,99.12630329999956,99.37935930000003,l,None,None,04,001,2024-11-21_19h19.50.589,PSY310 TASK7,2024.1.5,None,2024-11-21 19h20.10.136446 +0530,
40.0,55.0,62.0,10,6,76,3,99.39276040000004,,99.38036089999969,99.39276040000004,100.3929777000003,100.3929777000003,100.3929777000003,100.66301930000009,t,0.2590364999996382,None,04,001,2024-11-21_19h19.50.589,PSY310 TASK7,2024.1.5,None,2024-11-21 19h20.10.136446 +0530,
15.0,35.0,13.0,11,0,77,1,100.67591279999942,,100.66499639999984,100.67591279999942,101.67586279999978,101.67586279999978,101.67586279999978,101.79455319999943,l,0.11481389999971725,None,04,001,2024-11-21_19h19.50.589,PSY310 TASK7,2024.1.5,None,2024-11-21 19h20.10.136446 +0530,
49.0,60.0,89.0,11,1,78,4,101.80930480000006,,101.7959192999997,101.80930480000006,102.79260629999953,102.79260629999953,102.80940779999946,103.09382039999946,l,0.2967947000006461,None,04,001,2024-11-21_19h19.50.589,PSY310 TASK7,2024.1.5,None,2024-11-21 19h20.10.136446 +0530,
27.0,50.0,21.0,11,2,79,2,103.10927720000018,,103.09538599999996,103.10927720000018,104.10931989999972,104.10931989999972,104.10931989999972,104.27688330000001,t,0.15495569999984582,None,04,001,2024-11-21_19h19.50.589,PSY310 TASK7,2024.1.5,None,2024-11-21 19h20.10.136446 +0530,
40.0,55.0,62.0,11,3,80,3,104.29254519999995,,104.27736319999985,104.29254519999995,105.29258279999976,105.29258279999976,105.29258279999976,105.52796560000024,t,0.23129400000016176,None,04,001,2024-11-21_19h19.50.589,PSY310 TASK7,2024.1.5,None,2024-11-21 19h20.10.136446 +0530,
78.0,80.0,162.0,11,4,81,6,105.54242359999989,,105.52936049999971,105.54242359999989,106.54246059999969,106.54246059999969,106.54246059999969,106.76061349999964,t,0.2120108999997683,None,04,001,2024-11-21_19h19.50.589,PSY310 TASK7,2024.1.5,None,2024-11-21 19h20.10.136446 +0530,
11.0,30.0,7.0,11,5,82,0,106.77793999999994,,106.76192850000007,106.77793999999994,107.77582439999969,107.77582439999969,107.79231340000024,108.02691959999993,t,0.2350680999998076,None,04,001,2024-11-21_19h19.50.589,PSY310 TASK7,2024.1.5,None,2024-11-21 19h20.10.136446 +0530,
67.0,75.0,119.0,11,6,83,5,108.0421593000001,,108.02840639999977,108.0421593000001,109.04242479999994,109.04242479999994,109.04242479999994,109.31025450000016,l,0.26131440000062867,None,04,001,2024-11-21_19h19.50.589,PSY310 TASK7,2024.1.5,None,2024-11-21 19h20.10.136446 +0530,
11.0,30.0,7.0,12,0,84,0,109.32550439999977,,109.31079039999986,109.32550439999977,110.32567019999988,110.32567019999988,110.32567019999988,110.5790678000003,t,0.23563560000002326,None,04,001,2024-11-21_19h19.50.589,PSY310 TASK7,2024.1.5,None,2024-11-21 19h20.10.136446 +0530,
78.0,80.0,162.0,12,1,85,6,110.59199799999988,,110.57955130000028,110.59199799999988,111.59207479999986,111.59207479999986,111.59207479999986,111.72658609999962,t,0.12704029999986233,None,04,001,2024-11-21_19h19.50.589,PSY310 TASK7,2024.1.5,None,2024-11-21 19h20.10.136446 +0530,
15.0,35.0,13.0,12,2,86,1,111.74205879999954,,111.72822050000013,111.74205879999954,112.74213400000008,112.74213400000008,112.74213400000008,113.01424529999986,t,0.2627756000001682,None,04,001,2024-11-21_19h19.50.589,PSY310 TASK7,2024.1.5,None,2024-11-21 19h20.10.136446 +0530,
27.0,50.0,21.0,12,3,87,2,113.02510299999994,,113.01469829999951,113.02510299999994,114.02532019999944,114.02532019999944,114.02532019999944,114.22679909999988,t,0.18852389999938168,None,04,001,2024-11-21_19h19.50.589,PSY310 TASK7,2024.1.5,None,2024-11-21 19h20.10.136446 +0530,
40.0,55.0,62.0,12,4,88,3,114.2417889999997,,114.22826889999942,114.2417889999997,115.24353859999974,115.24353859999974,115.24353859999974,115.3930851999994,t,0.14481479999994917,None,04,001,2024-11-21_19h19.50.589,PSY310 TASK7,2024.1.5,None,2024-11-21 19h20.10.136446 +0530,
67.0,75.0,119.0,12,5,89,5,115.40854519999993,,115.39461039999969,115.40854519999993,116.4085514999997,116.4085514999997,116.4085514999997,116.57626890000029,t,0.1512588000005053,None,04,001,2024-11-21_19h19.50.589,PSY310 TASK7,2024.1.5,None,2024-11-21 19h20.10.136446 +0530,
49.0,60.0,89.0,12,6,90,4,116.59154190000027,,116.57686360000025,116.59154190000027,117.59185100000013,117.59185100000013,117.59185100000013,118.2793574999996,t,0.6840205999997124,None,04,001,2024-11-21_19h19.50.589,PSY310 TASK7,2024.1.5,None,2024-11-21 19h20.10.136446 +0530,
49.0,60.0,89.0,13,0,91,4,118.2915352,,118.28100089999953,118.2915352,119.29153409999981,119.29153409999981,119.29153409999981,119.54571059999944,t,0.24984959999983403,None,04,001,2024-11-21_19h19.50.589,PSY310 TASK7,2024.1.5,None,2024-11-21 19h20.10.136446 +0530,
27.0,50.0,21.0,13,1,92,2,119.55815269999948,,119.54756759999964,119.55815269999948,120.55834690000029,120.55834690000029,120.55834690000029,120.77931230000013,t,0.21793869999964954,None,04,001,2024-11-21_19h19.50.589,PSY310 TASK7,2024.1.5,None,2024-11-21 19h20.10.136446 +0530,
15.0,35.0,13.0,13,2,93,1,120.7914740999995,,120.78098239999963,120.7914740999995,121.7914638000002,121.7914638000002,121.7914638000002,121.99273900000026,t,0.1961008000007496,None,04,001,2024-11-21_19h19.50.589,PSY310 TASK7,2024.1.5,None,2024-11-21 19h20.10.136446 +0530,
67.0,75.0,119.0,13,3,94,5,122.01043789999949,,121.99428290000014,122.01043789999949,123.00831159999962,123.00831159999962,123.0246404999998,123.17783859999963,t,0.156101800000215,None,04,001,2024-11-21_19h19.50.589,PSY310 TASK7,2024.1.5,None,2024-11-21 19h20.10.136446 +0530,
40.0,55.0,62.0,13,4,95,3,123.19140499999958,,123.17827260000013,123.19140499999958,124.19130339999992,124.19130339999992,124.19130339999992,124.44280739999977,t,0.2371902000004411,None,04,001,2024-11-21_19h19.50.589,PSY310 TASK7,2024.1.5,None,2024-11-21 19h20.10.136446 +0530,
11.0,30.0,7.0,13,5,96,0,124.4713856999997,,124.44676249999975,124.4713856999997,125.45820800000001,125.45820800000001,125.47538149999946,125.72578329999942,t,0.2576734000003853,None,04,001,2024-11-21_19h19.50.589,PSY310 TASK7,2024.1.5,None,2024-11-21 19h20.10.136446 +0530,
78.0,80.0,162.0,13,6,97,6,125.74113729999954,,125.72727419999956,125.74113729999954,126.7433001999998,126.7433001999998,126.7433001999998,126.9596131999997,t,0.20508479999989504,None,04,001,2024-11-21_19h19.50.589,PSY310 TASK7,2024.1.5,None,2024-11-21 19h20.10.136446 +0530,
11.0,30.0,7.0,14,0,98,0,126.97433579999961,,126.96136810000007,126.97433579999961,127.9745782,127.9745782,127.9745782,128.11115270000028,t,0.11718899999959831,None,04,001,2024-11-21_19h19.50.589,PSY310 TASK7,2024.1.5,None,2024-11-21 19h20.10.136446 +0530,
67.0,75.0,119.0,14,1,99,5,128.12422289999995,,128.11162280000008,128.12422289999995,129.12452549999944,129.12452549999944,129.12452549999944,129.32796140000028,t,0.20023140000012063,None,04,001,2024-11-21_19h19.50.589,PSY310 TASK7,2024.1.5,None,2024-11-21 19h20.10.136446 +0530,
40.0,55.0,62.0,14,2,100,3,129.34080269999959,,129.32934810000006,129.34080269999959,130.34118649999982,130.34118649999982,130.34118649999982,130.44202039999982,t,0.09144310000010591,None,04,001,2024-11-21_19h19.50.589,PSY310 TASK7,2024.1.5,None,2024-11-21 19h20.10.136446 +0530,
15.0,35.0,13.0,14,3,101,1,130.45753109999987,,130.44248309999966,130.45753109999987,131.45778509999946,131.45778509999946,131.45778509999946,131.72717379999995,t,0.2642803999997341,None,04,001,2024-11-21_19h19.50.589,PSY310 TASK7,2024.1.5,None,2024-11-21 19h20.10.136446 +0530,
78.0,80.0,162.0,14,4,102,6,131.74220390000028,,131.72874969999975,131.74220390000028,132.7410047000003,132.7410047000003,132.75783150000007,132.87534510000023,t,0.1298149000003832,None,04,001,2024-11-21_19h19.50.589,PSY310 TASK7,2024.1.5,None,2024-11-21 19h20.10.136446 +0530,
49.0,60.0,89.0,14,5,103,4,132.89070009999978,,132.87605770000027,132.89070009999978,133.89086729999963,133.89086729999963,133.89086729999963,134.17743429999973,t,0.2720409000003201,None,04,001,2024-11-21_19h19.50.589,PSY310 TASK7,2024.1.5,None,2024-11-21 19h20.10.136446 +0530,
27.0,50.0,21.0,14,6,104,2,134.19056949999958,,134.1780577999998,134.19056949999958,135.1907911999997,135.1907911999997,135.1907911999997,135.21092820000013,l,0.0018552999999883468,None,04,001,2024-11-21_19h19.50.589,PSY310 TASK7,2024.1.5,None,2024-11-21 19h20.10.136446 +0530,
